Folder: CGR3-tobacco-2024/Greenhouse gas exchange and TDL

Note: Greenhouse gas exchange and TDL/README.md
# Greenhouse gas exchange and TDL

## Overview

This directory contains data and analysis scripts used to calculate isotope
discrimination and mesophyll conductance. Values from the output file
`Summary CGR3 greenhouse mesophyll conductance TDL.xlsx` were used to create
Figure 3 and Table S2 (in the Supplemental Information).

## Files

- `20230314 TGA Sampling System_SiteAvg.dat`,
  `20230315 TGA Sampling System_SiteAvg.dat`, and
  `TGA Sampling System_SiteAvg.dat`: Tunable diode laser (TDL) log files that
  were recorded at the same time as the gas exchange files described below.

- Thirty-six Microsoft Excel files whose names begin with `2023`: Licor LI-6800
  log files that were recorded at the same time as the TDL log files.

- `gm_from_tdl.R`: An R script that calculates mesophyll conductance and other
  key parameters from the measurements in the TDL and Licor log files.

- `Summary CGR3 greenhouse mesophyll conductance TDL.xlsx`: A table of mesophyll
  conductance and other values that was originally produced by running the
  `gm_from_tdl.R` script.

## Running the script

### Required R packages

The scripts in this directory require two R packages: `lattice` and `PhotoGEA`
(version `0.10.0`):

- The `lattice` package can be installed from within R using
  `install.packages('lattice')`.

- The required version of `PhotoGEA` can be installed from within R by calling
  `remotes::install_github('eloch216/PhotoGEA', ref = 'v0.10.0')`. Note that
  this command requires the `remotes` package, which can be installed using
  `install.packages('remotes')`.

### Running from R

1. Set the working directory of an R session to this directory.

2. Type the following to run the script:

   ```r
   source('gm_from_tdl.R')
   ```

3. The script will produce several graphs and output CSV files. In particular,
   the contents of `Summary CGR3 greenhouse mesophyll conductance TDL.xlsx` are
   taken from a subset of the columns included in the
   `gm_stats_by_rep_outliers_excluded.csv` file.

*WARNING:* This script will automatically clear your workspace before it runs.

File: 20230314 TGA Sampling System_SiteAvg.dat
"TOA5","TGA Sampling System","CR3000","3722","CR3000.Std.28.02","CPU:TGAsampling_v1_2_LICOR_high_CO2__site_11_13_CalTank2.CR3","2183","SiteAvg"
"TIMESTAMP","RECORD","valve_number","diag_system_Avg","NumSamples","Conc12C_Avg","Conc13C_Avg","TGAStatus_Avg","TGAPressure_Avg","LaserTemp_Avg","DCCurrentA_Avg","DCCurrentB_Avg","TGAAnalog1_Avg","TGATemp1_Avg","TGATemp2_Avg","LaserCooler_Avg","RefDetSigA_Avg","RefDetSigB_Avg","RefDetTransA_Avg","RefDetTransB_Avg","RefDetTemp_Avg","RefDetCooler_Avg","RefDetGainOffset_Avg","SmpDetSigA_Avg","SmpDetSigB_Avg","SmpDetTransA_Avg","SmpDetTransB_Avg","SmpDetTemp_Avg","SmpDetCooler_Avg","SmpDetGainOffset_Avg","TGATemp1DutyCycle_Avg","TGATemp2DutyCycle_Avg","SampleFlow_Avg","ExcessFlow_Avg","SamplePress_Avg","BypassPress_Avg","SampleP_control_Avg","BypassP_control_Avg","TGAPress_control_Avg","panel_tmpr_Avg","batt_volt_Avg","buff_depth_Max","Conc12C_Std","Conc13C_Std","TGAStatus_Std","TGAPressure_Std","LaserTemp_Std","DCCurrentA_Std","DCCurrentB_Std","TGAAnalog1_Std","TGATemp1_Std","TGATemp2_Std","LaserCooler_Std","RefDetSigA_Std","RefDetSigB_Std","RefDetTransA_Std","RefDetTransB_Std","RefDetTemp_Std","RefDetCooler_Std","RefDetGainOffset_Std","SmpDetSigA_Std","SmpDetSigB_Std","SmpDetTransA_Std","SmpDetTransB_Std","SmpDetTemp_Std","SmpDetCooler_Std","SmpDetGainOffset_Std","TGATemp1DutyCycle_Std","TGATemp2DutyCycle_Std","SampleFlow_Std","ExcessFlow_Std","SamplePress_Std","BypassPress_Std","SampleP_control_Std","BypassP_control_Std","TGAPress_control_Std","panel_tmpr_Std","batt_volt_Std","Li64Match_Avg(1)","Li64Match_Avg(2)","Li64Tmpr_Avg(1)","Li64Tmpr_Avg(2)","Li64Heat_Avg(1)","Li64Heat_Avg(2)","_Mix_diag_system_Avg","_Mix_ExcessZeroFlow_Avg","_Mix_ExcessMixFlow_Avg","_Mix_CO2Press_Avg","_Mix_ZeroPress_Avg","_Mix_CO2P_control_Avg","_Mix_ZeroP_control_Avg","_Mix_MixTmpr1_Avg","_Mix_MixTmpr2_Avg","_Mix_MixHeat1_Avg","_Mix_MixHeat2_Avg","_Mix_panel_tmpr_Avg","_Mix_batt_volt_Avg"
"TS","RN","","","","ppm","ppm","","mb","degC","mA","mA","V","degC","degC","V","mV","mV","%","%","degC","","","mV","mV","%","%","degC","","","","","ml_min","ml_min","mb","mb","","","","degC","V","","ppm","ppm","","mb","degC","mA","mA","V","degC","degC","V","mV","mV","%","%","degC","","","mV","mV","%","%","degC","","","","","ml_min","ml_min","mb","mb","","","","degC","V","","","degC","degC","","","","","","","","","","","","","","",""
"","","Smp","Avg","Tot","Avg","Avg","Avg","Avg","Avg","Avg","Avg","Avg","Avg","Avg","Avg","Avg","Avg","Avg","Avg","Avg","Avg","Avg","Avg","Avg","Avg","Avg","Avg","Avg","Avg","Avg","Avg","Avg","Avg","Avg","Avg","Avg","Avg","Avg","Avg","Avg","Max","Std","Std","Std","Std","Std","Std","Std","Std","Std","Std","Std","Std","Std","Std","Std","Std","Std","Std","Std","Std","Std","Std","Std","Std","Std","Std","Std","Std","Std","Std","Std","Std","Std","Std","Std","Std","Avg","Avg","Avg","Avg","Avg","Avg","Avg","Avg","Avg","Avg","Avg","Avg","Avg","Avg","Avg","Avg","Avg","Avg","Avg"
"2023-03-14 09:46:54.9",0,20,0,100,3.040483,0.03232421,0,29.99873,-1.000002,73.47709,71.31904,0.02390418,20.86187,20.78608,2.192422,3.038006,2.212575,55.02782,42.64326,-20.00002,749.8193,12323,53.50127,50.42965,99.85953,99.95811,-26.99996,845.834,12664,1,1,169.9837,101.7831,399.9929,400.1074,0.392969,0.4684615,0.5277237,22.01521,11.76326,0,0.5643594,0.006226836,0,0.009395462,0.0002601907,0.0001374635,0.0002179994,1.197095E-05,0.0003237053,0.0003318326,0.0003124193,0.00116377,0.001151457,0.02342894,0.02540481,0.0005318274,0.05310668,0,0.008172305,0.01069167,0.01528528,0.02035765,0.0004906095,0.04766932,0,0,0,0.2220531,0.1391279,0.0216867,0.1995022,8.06544E-05,0.000245344,0.0004714703,0.006186406,0.002296423,1,0,-79.55009,"NAN",1,0,"NAN","NAN","NAN","NAN","NAN","NAN","NAN","NAN","NAN","NAN","NAN","NAN","NAN"
"2023-03-14 10:18:14.9",94,2,0,100,298.008,3.287584,0,30.00042,-0.999984,73.47728,71.31965,0.02390506,21.06902,21.00207,2.194211,3.031925,2.217582,54.9332,42.70411,-19.99997,750.2224,12323,49.70613,45.38861,92.90715,90.27354,-26.99992,846.2164,12655,1,1,164.4415,55.38289,399.9851,399.9214,0.367895,0.4806584,0.5396221,21.93905,11.76233,0,1.89004,0.02075002,0,0.01122152,0.0002628908,0.0002898188,0.0003286939,1.256333E-05,0.0005026472,0.000508873,0.0003150378,0.001357431,0.00157569,0.02887291,0.0348989,0.0006204835,0.05901823,0,0.02308523,0.03077042,0.04238737,0.05877083,0.000601788,0.05782226,0,0,0,0.1307668,0.25497,0.02181963,0.3530264,0.0001335073,0.0004241039,0.0005753846,0.001861324,0.001992161,1,0,-77.39585,"NAN",1,0,960,0.4832932,167.7193,14.91764,16.95045,0,0,27.57507,27.69287,1,1,20.34207,9.526325
"2023-03-14 10:49:34.9",188,13,0,100,395.8048,4.318664,0,29.99929,-0.9999716,73.47946,71.32181,0.02390866,21.41789,21.36335,2.20522,3.019625,2.221744,54.66084,42.76887,-19.99996,752.739,12323,48.46805,43.87564,90.59667,87.41248,-26.99994,848.6838,12661,1,1,172.1494,40.39292,399.9368,400.0127,0.3569387,0.4645818,0.5434859,22.09455,11.76261,0,0.1924258,0.001672323,0,0.01005584,0.0002624686,0.0002784286,0.0002833801,1.095259E-05,0.000666194,0.0005518281,0.000315109,0.001297887,0.001148781,0.02642834,0.02369175,0.0005885293,0.05811122,0,0.003024575,0.002084159,0.006010358,0.004849765,0.0005470248,0.05417146,0,0,0,0.3046578,0.5456944,0.07033369,0.03184038,0.0006652264,7.659385E-05,0.0005146142,0.00231705,0.00218192,1,0,-78.80208,"NAN",1,0,960,0.4765458,166.7241,14.54572,16.88756,0,0,27.92471,28.01928,1,1,20.74421,9.527369
"2023-03-14 11:20:54.9",282,26,4,100,1458.967,16.07479,0,30.00018,-0.9999653,73.48266,71.32491,0.02390816,21.77884,21.72893,2.222937,3.003078,2.220343,54.36839,42.7075,-19.9999,756.96,12323,36.95808,29.9148,69.39355,60.4376,-26.99992,852.7825,12629,1,1,169.8943,1.265019,401.5318,399.8629,0.2976223,0.4692769,0.5467116,22.3964,11.76134,0,0.9908519,0.01147408,0,0.009812178,0.0002435423,0.0002182973,0.0002333765,1.167109E-05,0.0004292976,0.0005357878,0.0002938773,0.001377492,0.001354988,0.03001057,0.0260832,0.0006057136,0.05917464,0,0.009666154,0.009886262,0.01819224,0.01897344,0.0006414232,0.06334616,0,0,0,0.8255566,0.7307121,0.9544013,0.4509883,0.0130262,0.0004825599,0.0005073429,0.002007382,0.002186404,1,0,-77.73534,"NAN",1,0,960,0.4696842,166.1553,13.78877,16.90721,0,0,28.41769,28.48001,1,1,21.23221,9.537197
"2023-03-14 11:52:14.9",376,12,0,100,433.035,4.720222,0,30.00074,-0.9999632,73.48638,71.32822,0.02392358,22.08586,22.03577,2.244302,2.99583,2.229384,54.15737,42.87175,-19.99989,762.159,12323,47.9481,43.33356,89.63717,86.35627,-26.99988,857.8697,12665,1,1,170.5604,44.87824,399.915,400.0002,0.3617927,0.4691124,0.5484587,22.72969,11.76448,0,0.194264,0.002413085,0,0.009095517,0.0002297693,0.0002264671,0.0002512332,1.339901E-05,0.0002676143,0.0004481981,0.0002779796,0.001306014,0.001267324,0.02698573,0.02564729,0.0005341212,0.05157883,0,0.002976606,0.003004112,0.00675759,0.006518296,0.0005791747,0.05529764,0,0,0,0.1891953,1.140629,0.1294471,0.1177806,0.001068057,0.0001990277,0.0004667116,0.002190422,0.002150771,1,0,-77.23241,"NAN",1,0,960,0.4458982,164.7199,13.21209,16.86344,0,0,28.86539,28.88635,1,1,21.6434,9.539768
[...]
"2023-03-14 15:00:14.9",940,2,0,100,295.5175,3.263214,0,30.00018,-0.9999771,73.50737,71.34957,0.02394678,23.26071,23.21685,2.369138,2.967242,2.248827,53.48748,43.1025,-19.99991,792.8074,12323,49.65201,45.54823,92.68797,90.47932,-26.99989,887.7488,12667,1,1,163.2184,53.03269,399.9929,399.91,0.3714789,0.4853542,0.5548232,23.92359,11.7676,0,1.412221,0.01538997,0,0.01139788,0.0002699277,0.0001996596,0.000241664,1.269772E-05,0.0003130673,0.000237405,0.0003249837,0.0018519,0.001590975,0.03677212,0.0318035,0.0004976647,0.04739719,0,0.01830929,0.02213626,0.03382711,0.04239525,0.0005116636,0.04871039,0,0,0,0.1100022,0.2079652,0.02182449,0.3517196,8.904182E-05,0.0003934221,0.0005857287,0.001941532,0.002176255,1,0,-78.2588,"NAN",1,0,960,0.4467243,162.3306,11.4566,16.8135,0,0,30.3035,30.19779,1,1,22.99437,9.540305
"2023-03-14 15:31:34.9",1034,13,0,100,393.286,4.294665,0,30.00064,-0.9999861,73.50934,71.35173,0.02394931,23.26247,23.19509,2.381967,2.964464,2.247589,53.44633,43.05974,-19.99991,796.2305,12323,48.3778,44.02758,90.3615,87.5851,-26.99993,891.0691,12669,1,1,171.4501,56.2086,400.0209,400.0302,0.3725382,0.4668392,0.554182,23.90102,11.76732,0,0.2112102,0.001763012,0,0.01171298,0.0002734447,0.0002666534,0.0002739159,1.24434E-05,0.0002099268,0.0002100746,0.000328711,0.001664895,0.001645384,0.0336555,0.03436836,0.0005671858,0.05575738,0,0.003482333,0.004150212,0.008180219,0.009053277,0.0004898085,0.05064248,0,0,0,0.4061296,0.4445225,0.07201867,0.05780597,0.0004957887,5.700802E-05,0.000601078,0.002711229,0.002232642,1,0,-76.87124,"NAN",1,0,960,0.4760942,161.6793,11.06861,16.78811,0,0,30.27011,30.13904,1,1,22.95376,9.54152
"2023-03-14 16:02:54.9",1128,26,4,100,1071.631,11.80282,0,30.0018,-0.9999972,73.51083,71.35342,0.02394621,23.21099,23.1638,2.390171,2.963403,2.24497,53.4075,42.99607,-19.99995,798.4656,12323,40.52545,34.54073,75.89928,69.32941,-27.00001,893.204,12648,1,1,169.9277,0.6121109,401.7475,399.8633,0.2882602,0.4715636,0.5533834,23.82709,11.7653,0,0.819124,0.009226934,0,0.009739047,0.0002778824,0.0001937461,0.0002589019,1.440899E-05,0.0002508296,0.0002803107,0.0003335352,0.001651948,0.001866788,0.03396942,0.04222909,0.0005666611,0.05540034,0,0.007191566,0.007964572,0.01387465,0.01586845,0.000478936,0.04984539,0,0,0,0.4886388,0.4159218,0.3939996,0.4648795,0.01541668,0.0005083656,0.0005048699,0.001894997,0.002198483,1,0,-79.51236,"NAN",1,0,960,0.4592875,161.5602,10.92967,16.79433,0,0,30.20453,30.07367,1,1,22.84255,9.528519
"2023-03-14 16:05:34.9",1136,23,0,100,344.8285,3.79293,0,29.99914,-0.9999951,73.51098,71.35359,0.02394548,23.20009,23.15449,2.390609,2.965963,2.247788,53.44871,43.04892,-20,798.5734,12323,48.99332,44.74364,91.49328,88.9613,-27.00002,893.3363,12668,1,1,168.956,145.4873,400.0026,400.0872,0.4068504,0.4566248,0.5541723,23.81572,11.76432,0,0.1622627,0.001954181,0,0.01138728,0.0002247156,0.0001567202,0.0002346616,1.406886E-05,0.0002700558,0.0002948363,0.0002700308,0.00290113,0.00266333,0.06193016,0.05922204,0.0005304984,0.05262141,0,0.00442743,0.004320989,0.01007319,0.01009218,0.0004767937,0.04535542,0,0,0,0.1773773,0.1406256,0.02598315,0.124366,6.209427E-05,0.0001273132,0.0005845698,0.0021462,0.002127681,1,0,-79.73473,"NAN",1,0,960,0.4443317,161.2932,10.94172,16.78332,0,0,30.19896,30.07367,1,1,22.8408,9.523812

File: 20230315 TGA Sampling System_SiteAvg.dat
"TOA5","TGA Sampling System","CR3000","3722","CR3000.Std.28.02","CPU:TGAsampling_v1_2_LICOR_high_CO2__site_11_13_CalTank2.CR3","2183","SiteAvg"
"TIMESTAMP","RECORD","valve_number","diag_system_Avg","NumSamples","Conc12C_Avg","Conc13C_Avg","TGAStatus_Avg","TGAPressure_Avg","LaserTemp_Avg","DCCurrentA_Avg","DCCurrentB_Avg","TGAAnalog1_Avg","TGATemp1_Avg","TGATemp2_Avg","LaserCooler_Avg","RefDetSigA_Avg","RefDetSigB_Avg","RefDetTransA_Avg","RefDetTransB_Avg","RefDetTemp_Avg","RefDetCooler_Avg","RefDetGainOffset_Avg","SmpDetSigA_Avg","SmpDetSigB_Avg","SmpDetTransA_Avg","SmpDetTransB_Avg","SmpDetTemp_Avg","SmpDetCooler_Avg","SmpDetGainOffset_Avg","TGATemp1DutyCycle_Avg","TGATemp2DutyCycle_Avg","SampleFlow_Avg","ExcessFlow_Avg","SamplePress_Avg","BypassPress_Avg","SampleP_control_Avg","BypassP_control_Avg","TGAPress_control_Avg","panel_tmpr_Avg","batt_volt_Avg","buff_depth_Max","Conc12C_Std","Conc13C_Std","TGAStatus_Std","TGAPressure_Std","LaserTemp_Std","DCCurrentA_Std","DCCurrentB_Std","TGAAnalog1_Std","TGATemp1_Std","TGATemp2_Std","LaserCooler_Std","RefDetSigA_Std","RefDetSigB_Std","RefDetTransA_Std","RefDetTransB_Std","RefDetTemp_Std","RefDetCooler_Std","RefDetGainOffset_Std","SmpDetSigA_Std","SmpDetSigB_Std","SmpDetTransA_Std","SmpDetTransB_Std","SmpDetTemp_Std","SmpDetCooler_Std","SmpDetGainOffset_Std","TGATemp1DutyCycle_Std","TGATemp2DutyCycle_Std","SampleFlow_Std","ExcessFlow_Std","SamplePress_Std","BypassPress_Std","SampleP_control_Std","BypassP_control_Std","TGAPress_control_Std","panel_tmpr_Std","batt_volt_Std","Li64Match_Avg(1)","Li64Match_Avg(2)","Li64Tmpr_Avg(1)","Li64Tmpr_Avg(2)","Li64Heat_Avg(1)","Li64Heat_Avg(2)","_Mix_diag_system_Avg","_Mix_ExcessZeroFlow_Avg","_Mix_ExcessMixFlow_Avg","_Mix_CO2Press_Avg","_Mix_ZeroPress_Avg","_Mix_CO2P_control_Avg","_Mix_ZeroP_control_Avg","_Mix_MixTmpr1_Avg","_Mix_MixTmpr2_Avg","_Mix_MixHeat1_Avg","_Mix_MixHeat2_Avg","_Mix_panel_tmpr_Avg","_Mix_batt_volt_Avg"
"TS","RN","","","","ppm","ppm","","mb","degC","mA","mA","V","degC","degC","V","mV","mV","%","%","degC","","","mV","mV","%","%","degC","","","","","ml_min","ml_min","mb","mb","","","","degC","V","","ppm","ppm","","mb","degC","mA","mA","V","degC","degC","V","mV","mV","%","%","degC","","","mV","mV","%","%","degC","","","","","ml_min","ml_min","mb","mb","","","","degC","V","","","degC","degC","","","","","","","","","","","","","","",""
"","","Smp","Avg","Tot","Avg","Avg","Avg","Avg","Avg","Avg","Avg","Avg","Avg","Avg","Avg","Avg","Avg","Avg","Avg","Avg","Avg","Avg","Avg","Avg","Avg","Avg","Avg","Avg","Avg","Avg","Avg","Avg","Avg","Avg","Avg","Avg","Avg","Avg","Avg","Avg","Max","Std","Std","Std","Std","Std","Std","Std","Std","Std","Std","Std","Std","Std","Std","Std","Std","Std","Std","Std","Std","Std","Std","Std","Std","Std","Std","Std","Std","Std","Std","Std","Std","Std","Std","Std","Std","Avg","Avg","Avg","Avg","Avg","Avg","Avg","Avg","Avg","Avg","Avg","Avg","Avg","Avg","Avg","Avg","Avg","Avg","Avg"
"2023-03-15 09:30:44.2",0,20,0,100,3.734803,0.04075382,0,29.99858,-0.9999909,73.48408,71.32618,0.02390591,21.3095,21.25833,2.224418,2.95771,2.149852,53.57532,41.41557,-19.99997,756.5296,12325,53.47712,50.4229,99.84169,99.90038,-26.99997,852.3878,12671.79,1,1,169.5622,99.53049,399.9895,400.0781,0.4085672,0.4820625,0.5234513,23.14129,11.76678,0,0.5912907,0.006339824,0,0.01034634,0.0002329777,0.0001975577,0.0002573366,1.159613E-05,0.0004814295,0.0004968439,0.0002793019,0.002446487,0.002700078,0.04516771,0.05332609,0.0005150973,0.04981704,0,0.008425273,0.01126413,0.01498458,0.02106554,0.0004673779,0.04626663,1.321325,0,0,0.1614257,0.122963,0.02499093,0.1898016,0.0001099482,0.0002221413,0.0005407388,0.002030661,0.002555778,1,0,-78.9656,"NAN",1,0,"NAN","NAN","NAN","NAN","NAN","NAN","NAN","NAN","NAN","NAN","NAN","NAN","NAN"
"2023-03-15 10:03:04.2",97,12,0,100,429.3566,4.680026,0,29.99881,-0.9999902,73.48588,71.32787,0.02390639,21.64938,21.60857,2.233142,3.009388,2.222192,54.44199,42.72544,-19.99994,758.6509,12325,48.03245,43.36895,89.80714,86.38682,-26.99994,854.4382,12664,1,1,170.907,43.58211,399.9314,399.9897,0.3668336,0.469198,0.5432845,23.0803,11.76488,0,0.1955177,0.001771426,0,0.01052539,0.0002495219,0.0002516533,0.0002677826,1.111518E-05,0.0005213575,0.0006792502,0.0003005147,0.001438448,0.001412503,0.02874693,0.0276045,0.0004976966,0.04784245,0,0.002664254,0.002550545,0.006315042,0.005697475,0.0005588483,0.05317344,0,0,0,0.1375886,0.8033161,0.08134753,0.03460374,0.0007972104,2.647663E-05,0.0005400818,0.001758905,0.002114809,1,0,-81.24777,"NAN",1,0,960,0.5091165,164.9789,11.21186,16.86654,0,0,28.23251,28.29452,1,1,20.98821,9.537538
"2023-03-15 10:35:24.2",194,10,0,100,436.7308,4.761498,0,29.99865,-0.9999716,73.48963,71.3316,0.02391508,22.08392,22.05274,2.251589,2.995805,2.227764,54.15026,42.82502,-19.99988,763.0703,12325,47.92203,43.29206,89.5648,86.24149,-26.9999,858.733,12667,1,1,169.3746,48.17343,400.0139,400.0424,0.3656012,0.4673185,0.5477941,23.14255,11.76484,0,0.3070599,0.002779475,0,0.01082383,0.0002345428,0.0001464938,0.0002234673,1.221862E-05,0.0007466014,0.000653106,0.0002814957,0.001278178,0.001325005,0.0256236,0.02873432,0.0005333226,0.05362119,0,0.00428786,0.00384433,0.007757721,0.007870794,0.000458245,0.04634365,0,0,0,0.1101194,0.09657994,0.02160984,0.3481075,0.0001622813,0.0004816504,0.0005689666,0.002218023,0.002112906,1,0,-78.60523,"NAN",1,0,960,0.4731956,163.3015,10.73927,16.81887,0,0,28.73021,28.76943,1,1,21.5327,9.542142
"2023-03-15 11:07:44.2",291,26,4,100,1018.15,11.21024,0,30.00051,-0.9999583,73.49347,71.33611,0.02392004,22.48776,22.45512,2.276399,2.983167,2.230602,53.88379,42.86752,-19.99986,769.1224,12325,41.23249,35.13086,77.23882,70.52213,-26.99993,864.6371,12650,1,1,169.7352,0.2203884,401.4063,399.8517,0.2635131,0.4679587,0.5504481,23.35765,11.7642,0,0.8543913,0.009099048,0,0.009427942,0.0002480894,0.0001604954,0.000239155,1.206865E-05,0.000578029,0.0005470956,0.0003003116,0.001585888,0.00145329,0.02507818,0.02439324,0.0005124439,0.05015611,0,0.00865598,0.009993322,0.01599314,0.0185244,0.0004699243,0.04900462,0,0,0,0.0963096,0.04504697,0.08642804,0.4805332,0.0125344,0.0005178835,0.0004787307,0.001951609,0.002253644,1,0,-78.90504,"NAN",1,0,960,0.4796892,162.1758,10.47618,16.77452,0,0,29.27828,29.26722,1,1,22.0323,9.54093
"2023-03-15 11:40:04.2",388,21,0,100,70.03612,0.768694,0,30.00011,-0.9999555,73.49859,71.34077,0.0239293,22.80331,22.77497,2.30326,2.977255,2.240178,53.7696,43.00756,-19.99989,775.7504,12325,52.60011,49.28367,98.17077,97.68129,-26.99988,871.144,12671,1,1,168.657,108.4568,400.0048,400.0153,0.3943489,0.46098,0.5522788,23.58689,11.76539,0,0.09437398,0.0007568837,0,0.0111947,0.0002699279,0.0002619947,0.0003160073,1.265232E-05,0.0002718098,0.0004383587,0.0003274402,0.002939546,0.002860544,0.03216738,0.03781314,0.0004540526,0.04733832,0,0.004498553,0.00492148,0.004862027,0.006074269,0.0004696484,0.04673839,0,0,0,0.179184,0.09210081,0.02039831,0.05027289,5.222331E-05,0.0001251895,0.0005755395,0.002248126,0.002239251,1,0,-80.66436,"NAN",1,0,960,0.4705194,162.0798,10.4765,16.77683,0,0,29.70083,29.65188,1,1,22.43306,9.545732
[...]
"2023-03-15 14:21:44.2",873,20,0,100,1.763496,0.01775091,0,29.9969,-0.9999667,73.51572,71.35809,0.02394751,23.65907,23.62723,2.410877,2.951329,2.254085,53.16483,43.16672,-19.99992,803.055,12325,53.56464,50.51352,99.88721,99.99199,-26.99985,897.6877,12664,1,1,168.3906,98.30072,400.0007,400.0886,0.3928712,0.4635321,0.5572814,24.28557,11.76877,0,0.5505168,0.006050331,0,0.01170789,0.0002361139,0.000229485,0.0002491066,1.355802E-05,0.0002800419,0.0002930296,0.0002846967,0.002237322,0.002277114,0.04677585,0.04445054,0.0004641596,0.0445689,0,0.0084549,0.01043169,0.01516716,0.02015937,0.000462235,0.04679204,0,0,0,0.1964195,0.1044495,0.02063818,0.1740434,4.656071E-05,0.0002122189,0.0006891227,0.0021953,0.002134266,1,0,-79.59233,"NAN",1,0,960,0.4466655,160.9559,10.15657,16.77494,0,0,30.69215,30.53378,1,1,23.29491,9.549588
"2023-03-15 14:54:04.2",970,12,0,100,429.1193,4.684369,0,30.00031,-0.9999722,73.51813,71.36053,0.0239532,23.78389,23.75496,2.426591,2.948194,2.25484,53.10199,43.14315,-19.99991,806.9945,12325,47.86356,43.46877,89.41878,86.51045,-26.99993,901.5051,12669,1,1,169.7495,44.53109,399.9263,399.9876,0.3678674,0.4670098,0.5575462,24.38881,11.7691,0,1.45605,0.01639997,0,0.01037464,0.0002590388,0.0002485855,0.0002360468,1.199087E-05,0.0003437447,0.0003133634,0.0003106776,0.002252438,0.002500271,0.04562433,0.05349949,0.0005273647,0.05167392,0,0.01809756,0.02237045,0.03304053,0.04321201,0.0005114514,0.04763697,0,0,0,0.2451097,0.8274313,0.07908609,0.03891973,0.0007945675,2.772532E-05,0.0005329649,0.002229074,0.002114885,1,0,-77.16165,"NAN",1,0,960,0.458187,161.5567,10.26559,16.76822,0,0,30.7995,30.63321,1,1,23.38888,9.548251
"2023-03-15 15:26:24.2",1067,10,0,100,391.8115,4.274693,0,30.00057,-0.9999819,73.51996,71.36303,0.02395595,23.82168,23.78516,2.439309,2.949623,2.258805,53.08974,43.20963,-19.99991,810.2661,12325,48.34075,44.05656,90.28583,87.65192,-26.99997,904.676,12666,1,1,171.5644,45.2907,400.0167,400.0431,0.3673241,0.4674827,0.5573562,24.42922,11.76933,0,0.2377562,0.002494925,0,0.01435173,0.0002607099,0.0002675178,0.0002734405,1.364206E-05,0.0002322664,0.0002720665,0.0003126813,0.002859939,0.002520628,0.05722151,0.05362061,0.0004900331,0.05002891,0,0.003674309,0.003059081,0.008012254,0.00672601,0.0004276081,0.04404194,0,0,0,0.08976572,0.1402561,0.04791594,0.3679093,0.0001350081,0.0005148929,0.0007353582,0.00200458,0.001983183,1,0,-80.0466,"NAN",1,0,960,0.4297307,160.7288,10.20238,16.75968,0,0,30.7995,30.6478,1,1,23.41013,9.533812
"2023-03-15 15:57:44.2",1161,20,0,100,1.505406,0.01423326,0,30.00005,-1.000006,73.52076,71.36406,0.02395579,23.69757,23.6689,2.446007,2.955264,2.260104,53.18678,43.22472,-19.99999,811.9658,12325,53.56754,50.5112,99.91442,100.006,-26.99997,906.3541,12667,1,1,168.7838,97.44025,400.0024,400.3277,0.3924776,0.4668034,0.5566816,24.33823,11.76823,0,0.5607274,0.005998963,0,0.01190953,0.0002823647,0.0002799954,0.00031699,1.355288E-05,0.0004128333,0.0004138538,0.0003388423,0.003577981,0.003212765,0.0588908,0.05398742,0.0004843891,0.04683693,0,0.009306431,0.01025681,0.01551587,0.01868714,0.0004509915,0.04451009,0,0,0,0.1766209,0.09347676,0.02035118,0.3188572,5.838301E-05,0.001115968,0.000609515,0.00219247,0.002204699,1,0,-77.18916,"NAN",1,0,960,0.4404003,159.6584,10.14738,16.70829,0,0,30.67072,30.53332,1,1,23.23843,9.516064