Folder: CGR3-tobacco-2024/Greenhouse gas exchange and TDL (part 2)

File: TGA Sampling System_SiteAvg.dat
"TOA5","TGA Sampling System","CR3000","3722","CR3000.Std.28.02","CPU:TGAsampling_v1_2_LICOR_high_CO2__site_11_13_CalTank2.CR3","2183","SiteAvg"
"TIMESTAMP","RECORD","valve_number","diag_system_Avg","NumSamples","Conc12C_Avg","Conc13C_Avg","TGAStatus_Avg","TGAPressure_Avg","LaserTemp_Avg","DCCurrentA_Avg","DCCurrentB_Avg","TGAAnalog1_Avg","TGATemp1_Avg","TGATemp2_Avg","LaserCooler_Avg","RefDetSigA_Avg","RefDetSigB_Avg","RefDetTransA_Avg","RefDetTransB_Avg","RefDetTemp_Avg","RefDetCooler_Avg","RefDetGainOffset_Avg","SmpDetSigA_Avg","SmpDetSigB_Avg","SmpDetTransA_Avg","SmpDetTransB_Avg","SmpDetTemp_Avg","SmpDetCooler_Avg","SmpDetGainOffset_Avg","TGATemp1DutyCycle_Avg","TGATemp2DutyCycle_Avg","SampleFlow_Avg","ExcessFlow_Avg","SamplePress_Avg","BypassPress_Avg","SampleP_control_Avg","BypassP_control_Avg","TGAPress_control_Avg","panel_tmpr_Avg","batt_volt_Avg","buff_depth_Max","Conc12C_Std","Conc13C_Std","TGAStatus_Std","TGAPressure_Std","LaserTemp_Std","DCCurrentA_Std","DCCurrentB_Std","TGAAnalog1_Std","TGATemp1_Std","TGATemp2_Std","LaserCooler_Std","RefDetSigA_Std","RefDetSigB_Std","RefDetTransA_Std","RefDetTransB_Std","RefDetTemp_Std","RefDetCooler_Std","RefDetGainOffset_Std","SmpDetSigA_Std","SmpDetSigB_Std","SmpDetTransA_Std","SmpDetTransB_Std","SmpDetTemp_Std","SmpDetCooler_Std","SmpDetGainOffset_Std","TGATemp1DutyCycle_Std","TGATemp2DutyCycle_Std","SampleFlow_Std","ExcessFlow_Std","SamplePress_Std","BypassPress_Std","SampleP_control_Std","BypassP_control_Std","TGAPress_control_Std","panel_tmpr_Std","batt_volt_Std","Li64Match_Avg(1)","Li64Match_Avg(2)","Li64Tmpr_Avg(1)","Li64Tmpr_Avg(2)","Li64Heat_Avg(1)","Li64Heat_Avg(2)","_Mix_diag_system_Avg","_Mix_ExcessZeroFlow_Avg","_Mix_ExcessMixFlow_Avg","_Mix_CO2Press_Avg","_Mix_ZeroPress_Avg","_Mix_CO2P_control_Avg","_Mix_ZeroP_control_Avg","_Mix_MixTmpr1_Avg","_Mix_MixTmpr2_Avg","_Mix_MixHeat1_Avg","_Mix_MixHeat2_Avg","_Mix_panel_tmpr_Avg","_Mix_batt_volt_Avg"
"TS","RN","","","","ppm","ppm","","mb","degC","mA","mA","V","degC","degC","V","mV","mV","%","%","degC","","","mV","mV","%","%","degC","","","","","ml_min","ml_min","mb","mb","","","","degC","V","","ppm","ppm","","mb","degC","mA","mA","V","degC","degC","V","mV","mV","%","%","degC","","","mV","mV","%","%","degC","","","","","ml_min","ml_min","mb","mb","","","","degC","V","","","degC","degC","","","","","","","","","","","","","","",""
"","","Smp","Avg","Tot","Avg","Avg","Avg","Avg","Avg","Avg","Avg","Avg","Avg","Avg","Avg","Avg","Avg","Avg","Avg","Avg","Avg","Avg","Avg","Avg","Avg","Avg","Avg","Avg","Avg","Avg","Avg","Avg","Avg","Avg","Avg","Avg","Avg","Avg","Avg","Avg","Max","Std","Std","Std","Std","Std","Std","Std","Std","Std","Std","Std","Std","Std","Std","Std","Std","Std","Std","Std","Std","Std","Std","Std","Std","Std","Std","Std","Std","Std","Std","Std","Std","Std","Std","Std","Std","Avg","Avg","Avg","Avg","Avg","Avg","Avg","Avg","Avg","Avg","Avg","Avg","Avg","Avg","Avg","Avg","Avg","Avg","Avg"
"2023-03-16 09:22:32.1",0,20,0,100,3.76203,0.03393208,0,29.99766,-0.9999931,73.48389,71.32661,0.02390222,21.17628,21.12098,2.212748,2.990051,2.183439,54.15379,42.06279,-19.99997,754.5767,12322,53.40299,50.37422,99.82371,99.98418,-26.99999,850.4735,12665,1,1,170.0138,98.4675,399.9985,400.1234,0.3897141,0.4645614,0.53025,22.37525,11.76406,0,0.587496,0.006542095,0,0.01372795,0.0002373696,0.0002312729,0.0002628725,1.142641E-05,0.0004233408,0.0003509493,0.0002850038,0.001330394,0.001231586,0.03074259,0.02664104,0.000664397,0.06758282,0,0.008601237,0.01125674,0.01584384,0.02140645,0.0007356948,0.07454776,0,0,0,0.1746226,0.1141125,0.02133644,0.1963085,4.982995E-05,0.0002689011,0.0007048483,0.001991342,0.00254166,1,0,-78.45085,"NAN",1,0,"NAN","NAN","NAN","NAN","NAN","NAN","NAN","NAN","NAN","NAN","NAN","NAN","NAN"
"2023-03-16 10:03:52.1",124,12,0,100,432.4404,4.714193,0,29.99965,-0.9999736,73.48578,71.32811,0.02390563,21.48698,21.43615,2.221086,3.008358,2.216182,54.47832,42.65113,-19.99995,756.5021,12322,47.92574,43.23973,89.72739,86.28962,-26.99994,852.3498,12666,1,1,171.82,49.5588,399.9499,400.0128,0.3657228,0.4620289,0.5439773,22.29212,11.76381,0,0.190803,0.001861301,0,0.01000935,0.0002339843,0.0002094848,0.0002297938,1.147601E-05,0.0005683005,0.00037874,0.0002812025,0.001188723,0.001226612,0.02280949,0.02418845,0.0006149839,0.06262572,0,0.002619121,0.002572234,0.005338337,0.005339256,0.0005527721,0.05558685,0,0,0,0.1215129,0.4682387,0.09908146,0.02661822,0.0004752029,5.929424E-05,0.0005118465,0.001800609,0.002285718,1,0,-79.84299,"NAN",1,0,960,0.4881202,162.4939,10.66526,16.67985,0,0,28.03008,28.10462,1,1,20.79844,9.522665
"2023-03-16 10:45:12.1",248,10,0,100,434.3415,4.741042,0,30.00009,-0.9999722,73.4893,71.33108,0.0239092,21.86093,21.81289,2.239252,3.000276,2.222124,54.27116,42.74031,-19.99994,760.8735,12322,47.88648,43.21535,89.64686,86.23061,-26.99995,856.5913,12663,1,1,171.1579,45.4257,400.0332,400.0427,0.3620533,0.4636318,0.5474022,22.44516,11.76418,0,0.3096046,0.002991171,0,0.01106277,0.0002348378,0.0002490948,0.0002631022,1.238137E-05,0.0005887966,0.0004550177,0.0002838042,0.002021083,0.002083663,0.04650119,0.04558948,0.0006713188,0.06580212,0,0.003768236,0.004694418,0.007915486,0.009718274,0.0006131208,0.0595033,0,0,0,0.1040379,0.2147807,0.03951518,0.3535899,0.0003490375,0.0004927027,0.00057178,0.002067531,0.002343762,1,0,-79.00824,"NAN",1,0,960,0.4669571,161.6263,10.48305,16.6485,0,0,28.50917,28.54098,1,1,21.31355,9.528171
"2023-03-16 11:26:32.1",372,26,4,100,1005.099,11.06559,0,30.00046,-0.9999743,73.4926,71.33472,0.02391508,22.11503,22.04497,2.260825,2.989468,2.22145,54.08125,42.69255,-19.99992,766.2906,12322,41.3513,35.17377,77.60001,70.70947,-26.99996,861.8488,12647,1,1,166.7645,0.1736073,395.8361,399.858,0.2,0.4676124,0.5485722,22.58774,11.76213,0,1.062137,0.01101385,0,0.01086529,0.0002815449,0.0002390275,0.0002946157,1.033151E-05,0.0003897807,0.0003540441,0.0003387003,0.001652113,0.001605334,0.03270928,0.03333116,0.0006510525,0.06525685,0,0.009816984,0.0113734,0.01796327,0.02191709,0.0006728282,0.06450591,0,0,0,0.09035498,0.009163123,0.0844125,0.4648202,0,0.0005045421,0.0005555273,0.002021668,0.002355814,1,0,-77.64992,"NAN",1,0,960,0.5042045,161.0638,10.3064,16.65048,0,0,28.82333,28.82349,1,1,21.61543,9.521146
"2023-03-16 12:07:52.1",496,21,0,100,67.36893,0.7378412,0,29.99939,-0.9999667,73.4961,71.33901,0.02392159,22.44025,22.37884,2.28402,2.983198,2.232857,53.89402,42.90525,-19.99992,772.0536,12322,52.57628,49.2666,98.24989,97.81123,-26.99992,867.5315,12673,1,1,169.0488,106.7387,400.0022,400.0281,0.3918708,0.4570233,0.5509767,22.81553,11.76318,0,0.08628889,0.0008731753,0,0.01042362,0.0002315828,0.0002219705,0.0002448988,1.159273E-05,0.0003641174,0.0003513688,0.0002798959,0.001761752,0.001816825,0.03628087,0.03739829,0.0006872181,0.06700848,0,0.003496225,0.003298813,0.007995812,0.007521456,0.00060659,0.05834346,0,0,0,0.1859925,0.1139047,0.01986164,0.05498147,4.64558E-05,6.914065E-05,0.0005350571,0.002197147,0.002108183,1,0,-77.61765,"NAN",1,0,960,0.4666557,160.9874,10.37447,16.63233,0,0,29.17084,29.13971,1,1,21.94684,9.536671
[...]
"2023-03-16 16:15:52.1",1240,12,0,100,427.6536,4.664615,0,30.00003,-0.9999826,73.51895,71.36139,0.02394523,23.57755,23.55499,2.422197,2.955348,2.25362,53.2359,43.13651,-19.99993,805.3307,8226,47.86942,43.44791,89.50921,86.56328,-26.99997,899.89,12664,1,1,170.3003,49.12062,399.958,400.0047,0.3702639,0.4657899,0.5563338,23.983,11.76844,0,0.4052644,0.004537868,0,0.01100413,0.0002847884,0.000295125,0.0003072885,1.382681E-05,0.0002383143,0.0003222636,0.0003422308,0.004121132,0.004309381,0.04795368,0.06028532,0.0006356002,0.0622483,0,0.007629967,0.007537844,0.0100539,0.01127193,0.0005708784,0.05686505,0,0,0,0.1394245,0.4646296,0.08519676,0.02681838,0.0004239372,4.185845E-05,0.0005664521,0.001992638,0.002095171,1,0,-79.17331,"NAN",1,0,960,0.4632132,159.3764,10.17749,16.55032,0,0,30.36907,30.25566,1,1,23.06672,9.540018
"2023-03-16 16:57:12.1",1364,10,0,100,439.6465,4.801946,0,30.00047,-0.9999889,73.52142,71.36375,0.02395162,23.71684,23.7039,2.435041,2.952392,2.258628,53.14793,43.20112,-19.99996,808.5686,8226,47.70881,43.27647,89.1935,86.22533,-26.99994,903.0564,12669,1,1,171.6051,41.91816,400.0307,400.0444,0.365712,0.4674977,0.5584269,24.1091,11.76879,0,10.80455,0.1180326,0,0.01218094,0.0002551848,0.0001724238,0.0002146996,1.302899E-05,0.0002757591,0.0002382912,0.0003066157,0.002706712,0.002601834,0.05094186,0.04955389,0.0006082573,0.06111651,0,0.1355078,0.1644318,0.249403,0.3157376,0.0006275133,0.06054893,0,0,0,0.1111784,0.2156831,0.05238764,0.3613734,0.0002493262,0.0005024104,0.0006263008,0.001741603,0.00225149,1,0,-79.85839,"NAN",1,0,960,0.4438132,159.45,10.19499,16.55342,0,0,30.53378,30.40167,1,1,23.17969,9.546885
"2023-03-16 17:38:32.1",1488,26,4,100,978.2073,10.78264,0,30.00054,-0.9999882,73.52345,71.36626,0.02394536,23.73476,23.69889,2.445618,2.949061,2.255073,53.08763,43.11094,-19.99995,811.2537,8226,41.37491,35.68704,77.52487,71.60943,-27.00004,905.6282,12644,1,1,163.9868,0.160262,392.9104,399.853,0.2,0.4718442,0.5591807,24.18931,11.76639,0,1.121833,0.01164232,0,0.009454718,0.0002486424,0.0001727874,0.0002296951,1.270851E-05,0.0002506663,0.0002882221,0.0002985474,0.002124985,0.002182458,0.0363817,0.04041265,0.0006021143,0.06153345,0,0.01252509,0.01388158,0.02265797,0.02597941,0.0004997818,0.04967649,0,0,0,0.07533548,0.009352724,0.07308067,0.4590582,0,0.0004911266,0.000492387,0.00212111,0.00229312,1,0,-80.67609,"NAN",1,0,960,0.4391547,159.5357,10.12147,16.59384,0,0,30.5834,30.43466,1,1,23.18144,9.518429
"2023-03-16 17:41:52.1",1498,2,0,100,294.7572,3.263412,0,30.00065,-0.9999917,73.52332,71.36615,0.0239507,23.72581,23.69096,2.446117,2.953647,2.260462,53.15876,43.21622,-19.99996,811.3978,8226,49.5674,45.50822,92.61486,90.49752,-26.99995,905.7905,12666,1,1,163.2119,44.89861,400.0145,399.9036,0.3685483,0.4846882,0.5590667,24.18732,11.76815,0,1.025973,0.01147047,0,0.01037951,0.0002625715,0.0001964358,0.0002655454,1.282085E-05,0.0002281361,0.000245765,0.0003148013,0.001979504,0.002155314,0.03583461,0.0405941,0.0005849121,0.05721349,0,0.01334362,0.01697144,0.02436017,0.03223326,0.0005595874,0.05395767,0,0,0,0.1033715,0.1524941,0.02235534,0.3571799,0.0001336921,0.0004070036,0.0005389509,0.00200214,0.002107937,1,0,-80.32808,"NAN",1,0,960,0.4464667,159.9896,10.11989,16.59169,0,0,30.57219,30.43466,1,1,23.17969,9.516672